trial,coord,imagefilestim,clrop,correc,primcond,imagefileprim,primop,onstcond,onst,Exp_loop.thisRepN,Exp_loop.thisTrialN,Exp_loop.thisN,Exp_loop.thisIndex,Instruction_text.started,Instruction_text.stopped,Instruction_resp.keys,Instruction_resp.rt,Instruction_resp.started,Instruction_resp.stopped,Fixation.started,Fixation.stopped,Stimulusarrow.started,Stimulusarrow.stopped,Backmask.started,Backmask.stopped,Frontmask.started,Frontmask.stopped,Primerarrow.started,Primerarrow.stopped,Response.keys,Response.corr,Response.started,Response.stopped,Response.rt,participant,session,date,expName,psychopyVersion,frameRate,
,,,,,,,,,,,,,,18.150269099976867,None,space,67.48259479994886,18.150269099976867,None,,,,,,,,,,,,,,,,1,001,2021_Dec_01_1404,Final,2021.2.3,59.95149918889401,
14,"(0.5, 0)",leftpurple.png,0.15,None,None,None,None,long,48,0,0,0,13,,,,,,,85.6994863001164,86.20156610012054,87.06183660007082,87.10108779999427,87.03532380005345,87.06183660007082,87.00196080002934,87.01842890004627,87.01842890004627,87.03532380005345,None,1,87.06183660007082,None,,1,001,2021_Dec_01_1404,Final,2021.2.3,59.95149918889401,
55,"(0.5, 0)",leftpurple.png,0.15,None,Oppcol,leftblue.png,0.15,long,48,0,1,1,54,,,,,,,88.58075760002248,89.08509570010938,89.93525979993865,89.96841529989615,89.91842140001245,89.93525979993865,89.88524560001679,89.90204409998842,89.90204409998842,89.91842140001245,None,1,89.93525979993865,88.58075760002248,,1,001,2021_Dec_01_1404,Final,2021.2.3,59.95149918889401,
18,"(-0.5, 0)",leftpurple.png,0.15,left,None,None,None,short,24,0,2,2,17,,,,,,,91.44471800001338,91.95142009994015,92.40200620004907,92.43534990004264,92.38527960004285,92.40200620004907,92.3519902001135,92.36851639999077,92.36851639999077,92.38527960004285,left,1,92.40200620004907,91.44471800001338,0.6389803998172283,1,001,2021_Dec_01_1404,Final,2021.2.3,59.95149918889401,
27,"(-0.5, 0)",rightblue.png,0.15,right,None,None,None,short,24,0,3,3,26,,,,,,,93.08693140000105,93.5853550999891,94.03536790004,94.06845059990883,94.01856120000593,94.03536790004,93.98536940012127,94.00203140010126,94.00203140010126,94.01856120000593,None,0,94.03536790004,None,,1,001,2021_Dec_01_1404,Final,2021.2.3,59.95149918889401,
69,"(-0.5, 0)",rightblue.png,0.15,right,Oppcol,rightpurple.png,0.15,long,48,0,4,4,68,,,,,,,95.54521339992061,96.05201680003665,96.90095319994725,96.93448910000734,96.88453530007973,96.90095319994725,96.85116819990799,96.86776409996673,96.86776409996673,96.88453530007973,None,0,96.90095319994725,95.54521339992061,,1,001,2021_Dec_01_1404,Final,2021.2.3,59.95149918889401,
2,"(0.5, 0)",rightpurple.png,0.15,right,None,None,None,short,24,0,5,5,1,,,,,,,98.41412919992581,98.91799159999937,99.36841160012409,99.40203340002336,99.35208450001664,99.36841160012409,99.31840980006382,99.33534749993123,99.33534749993123,99.35208450001664,right,1,99.36841160012409,98.41412919992581,0.6001063999719918,1,001,2021_Dec_01_1404,Final,2021.2.3,59.95149918889401,
1,"(0.5, 0)",rightpurple.png,0.15,right,None,None,None,short,24,0,6,6,0,,,,,,,99.98695000004955,100.48502689995803,100.93524180003442,100.96844849991612,100.91844230005518,100.93524180003442,100.885253299959,100.90174939995632,100.90174939995632,100.91844230005518,right,1,100.93524180003442,None,0.5534479999914765,1,001,2021_Dec_01_1404,Final,2021.2.3,59.95149918889401,
22,"(0.5, 0)",rightblue.png,0.15,None,None,None,None,short,24,0,7,7,21,,,,,,,101.52031409996562,102.01845109998249,102.46841969992965,102.50182630005293,102.45191169995815,102.46841969992965,102.4184884999413,102.43536400003359,102.43536400003359,102.45191169995815,right,0,102.46841969992965,None,0.4922927999868989,1,001,2021_Dec_01_1404,Final,2021.2.3,59.95149918889401,
79,"(-0.5, 0)",leftblue.png,0.15,None,Oppcol,leftpurple.png,0.15,long,48,0,8,8,78,,,,,,,102.99644310004078,103.50179219990969,104.35191299999133,104.38531969999894,104.33535790001042,104.35191299999133,104.30203850008547,104.31841029995121,104.31841029995121,104.33535790001042,left,0,104.35191299999133,None,0.4007168000098318,1,001,2021_Dec_01_1404,Final,2021.2.3,59.95149918889401,
49,"(-0.5, 0)",rightpurple.png,0.15,None,Oppcol,rightblue.png,0.15,long,48,0,9,9,48,,,,,,,104.78246299992315,105.28518139990047,106.13526050001383,106.16840779990889,106.1184831999708,106.13526050001383,106.08522029989399,106.10210320004262,106.10210320004262,106.1184831999708,right,0,106.13526050001383,None,0.5370569999795407,1,001,2021_Dec_01_1404,Final,2021.2.3,59.95149918889401,
9,"(-0.5, 0)",rightpurple.png,0.15,None,None,None,None,long,48,0,10,10,8,,,,,,,106.70420820009895,107.20200080005452,108.0520405001007,108.08527430007234,108.03536340012215,108.0520405001007,108.00191530003212,108.01840130006894,108.01840130006894,108.03536340012215,None,1,108.0520405001007,None,,1,001,2021_Dec_01_1404,Final,2021.2.3,59.95149918889401,
3,"(0.5, 0)",rightpurple.png,0.15,right,None,None,None,short,24,0,11,11,2,,,,,,,109.56618870003149,110.0685141000431,110.51857569999993,110.55201190011576,110.50196409993805,110.51857569999993,110.46841170010157,110.48541530012153,110.48541530012153,110.50196409993805,right,1,110.51857569999993,109.56618870003149,0.48989340011030436,1,001,2021_Dec_01_1404,Final,2021.2.3,59.95149918889401,
17,"(-0.5, 0)",leftpurple.png,0.15,left,None,None,None,short,24,0,12,12,16,,,,,,,111.03728109993972,111.53537770011462,111.98536360007711,112.01849370007403,111.96813219995238,111.98536360007711,111.93529059994034,111.95131219993345,111.95131219993345,111.96813219995238,left,1,111.98536360007711,None,0.4789260998368263,1,001,2021_Dec_01_1404,Final,2021.2.3,59.95149918889401,
7,"(-0.5, 0)",rightpurple.png,0.15,None,None,None,None,short,24,0,13,13,6,,,,,,,112.49474249989726,113.00205549993552,113.45203640009277,113.48519150004722,113.43524020002224,113.45203640009277,113.40201060008258,113.41857680003159,113.41857680003159,113.43524020002224,None,1,113.45203640009277,None,,1,001,2021_Dec_01_1404,Final,2021.2.3,59.95149918889401,
52,"(0.5, 0)",leftpurple.png,0.15,None,Oppcol,leftblue.png,0.15,short,24,0,14,14,51,,,,,,,114.95243140007369,115.45187989994884,115.9019677999895,115.93527409993112,115.88537220004946,115.9019677999895,115.85207309992984,115.86854410008527,115.86854410008527,115.88537220004946,None,1,115.9019677999895,114.95243140007369,,1,001,2021_Dec_01_1404,Final,2021.2.3,59.95149918889401,
38,"(-0.5, 0)",leftblue.png,0.15,None,None,None,None,short,24,0,15,15,37,,,,,,,117.40366160008125,117.90202350006439,118.35192569997162,118.38534369994886,118.33524790010415,118.35192569997162,118.30203390005045,118.31840969994664,118.31840969994664,118.33524790010415,left,0,118.35192569997162,117.40366160008125,0.46503300010226667,1,001,2021_Dec_01_1404,Final,2021.2.3,59.95149918889401,
45,"(0.5, 0)",rightpurple.png,0.15,right,Oppcol,rightblue.png,0.15,long,48,0,16,16,44,,,,,,,118.83800980006345,119.33491529989988,120.1853416999802,120.21840879996307,120.168411700055,120.1853416999802,120.13522380008362,120.1520297001116,120.1520297001116,120.168411700055,right,1,120.1853416999802,None,0.42314319987781346,1,001,2021_Dec_01_1404,Final,2021.2.3,59.95149918889401,
26,"(-0.5, 0)",rightblue.png,0.15,right,None,None,None,short,24,0,17,17,25,,,,,,,120.6382935999427,121.13529839995317,121.58531589992344,121.61843769997358,121.56850930000655,121.58531589992344,121.53531130007468,121.551877199905,121.551877199905,121.56850930000655,None,0,121.58531589992344,None,,1,001,2021_Dec_01_1404,Final,2021.2.3,59.95149918889401,
68,"(-0.5, 0)",rightblue.png,0.15,right,Oppcol,rightpurple.png,0.15,short,24,0,18,18,67,,,,,,,123.08673450001515,123.58516220003366,124.03528880001977,124.06839239993133,124.01842310000211,124.03528880001977,123.98536360007711,124.00196009990759,124.00196009990759,124.01842310000211,None,0,124.03528880001977,123.08673450001515,,1,001,2021_Dec_01_1404,Final,2021.2.3,59.95149918889401,
24,"(0.5, 0)",rightblue.png,0.15,None,None,None,None,long,48,0,19,19,23,,,,,,,125.5364930999931,126.03516820003279,126.88525140006095,126.91838830010965,126.86841770005412,126.88525140006095,126.83532029995695,126.8519665999338,126.8519665999338,126.86841770005412,right,0,126.88525140006095,125.5364930999931,0.6192779000848532,1,001,2021_Dec_01_1404,Final,2021.2.3,59.95149918889401,
37,"(-0.5, 0)",leftblue.png,0.15,None,None,None,None,short,24,0,20,20,36,,,,,,,127.54444839991629,128.0520198000595,128.5020208999049,128.53531479998492,128.48538359999657,128.5020208999049,128.45206820010208,128.46839649998583,128.46839649998583,128.48538359999657,left,0,128.5020208999049,None,0.5064600000623614,1,001,2021_Dec_01_1404,Final,2021.2.3,59.95149918889401,
36,"(-0.5, 0)",leftblue.png,0.15,None,None,None,None,short,24,0,21,21,35,,,,,,,129.03775950009003,129.53483429993503,129.98525790008716,130.01841260003857,129.96838460001163,129.98525790008716,129.9352530001197,129.951938000042,129.951938000042,129.96838460001163,left,0,129.98525790008716,None,0.46304410020820796,1,001,2021_Dec_01_1404,Final,2021.2.3,59.95149918889401,
70,"(-0.5, 0)",rightblue.png,0.15,right,Oppcol,rightpurple.png,0.15,long,48,0,22,22,69,,,,,,,130.47160800010897,130.96856720000505,131.8184974999167,131.85200510011055,131.8020206000656,131.8184974999167,131.76840850012377,131.7853842000477,131.7853842000477,131.8020206000656,None,0,131.8184974999167,None,,1,001,2021_Dec_01_1404,Final,2021.2.3,59.95149918889401,
19,"(-0.5, 0)",leftpurple.png,0.15,left,None,None,None,long,48,0,23,23,18,,,,,,,133.32833059993573,133.83526779990643,134.6851747999899,134.7183936999645,134.66838619997725,134.6851747999899,134.63536439999007,134.65188820008188,134.65188820008188,134.66838619997725,left,1,134.6851747999899,133.32833059993573,0.49937640014104545,1,001,2021_Dec_01_1404,Final,2021.2.3,59.95149918889401,
80,"(-0.5, 0)",leftblue.png,0.15,None,Oppcol,leftpurple.png,0.15,long,48,0,24,24,79,,,,,,,135.2145163998939,135.7185535999015,136.5683848001063,136.6019135999959,136.55205189995468,136.5683848001063,136.51838829996996,136.53524510003626,136.53524510003626,136.55205189995468,left,0,136.5683848001063,None,0.44013840006664395,1,001,2021_Dec_01_1404,Final,2021.2.3,59.95149918889401,
57,"(-0.5, 0)",leftpurple.png,0.15,left,Oppcol,leftblue.png,0.15,short,24,0,25,25,56,,,,,,,137.0494470000267,137.55193089996465,138.00200129998848,138.03522570012137,137.98533629998565,138.00200129998848,137.95191899989732,137.96839600009844,137.96839600009844,137.98533629998565,left,1,138.00200129998848,None,0.4463252001442015,1,001,2021_Dec_01_1404,Final,2021.2.3,59.95149918889401,
20,"(-0.5, 0)",leftpurple.png,0.15,left,None,None,None,long,48,0,26,26,19,,,,,,,138.47818430000916,138.98537839995697,139.83533839997835,139.86857359996065,139.81842590007,139.83533839997835,139.78533979994245,139.8018710000906,139.8018710000906,139.81842590007,None,0,139.83533839997835,None,,1,001,2021_Dec_01_1404,Final,2021.2.3,59.95149918889401,
35,"(0.5, 0)",leftblue.png,0.15,left,None,None,None,long,48,0,27,27,34,,,,,,,141.34325819998048,141.83533050003462,142.68525160010904,142.71839309995994,142.66838359995745,142.68525160010904,142.63529230002314,142.65172680001706,142.65172680001706,142.66838359995745,None,0,142.68525160010904,141.34325819998048,,1,001,2021_Dec_01_1404,Final,2021.2.3,59.95149918889401,
73,"(0.5, 0)",leftblue.png,0.15,left,Oppcol,leftpurple.png,0.15,short,24,0,28,28,72,,,,,,,144.18625169992447,144.6852790999692,145.13534329994582,145.16850370005704,145.11842390010133,145.13534329994582,145.08523890003562,145.10201420006342,145.10201420006342,145.11842390010133,None,0,145.13534329994582,144.18625169992447,,1,001,2021_Dec_01_1404,Final,2021.2.3,59.95149918889401,
72,"(0.5, 0)",leftblue.png,0.15,left,Oppcol,leftpurple.png,0.15,short,24,0,29,29,71,,,,,,,146.63684540009126,147.13487019995227,147.58523999992758,147.61840949999169,147.56847600010224,147.58523999992758,147.53534030006267,147.55195889994502,147.55195889994502,147.56847600010224,None,0,147.58523999992758,146.63684540009126,,1,001,2021_Dec_01_1404,Final,2021.2.3,59.95149918889401,
23,"(0.5, 0)",rightblue.png,0.15,None,None,None,None,short,24,0,30,30,22,,,,,,,149.09960870002396,149.6021004000213,150.05201729992405,150.08511639991775,150.03524310002103,150.05201729992405,150.00197579991072,150.01842610002495,150.01842610002495,150.03524310002103,right,0,150.05201729992405,149.09960870002396,0.5887953999917954,1,001,2021_Dec_01_1404,Final,2021.2.3,59.95149918889401,
6,"(-0.5, 0)",rightpurple.png,0.15,None,None,None,None,short,24,0,31,31,5,,,,,,,150.6797259999439,151.18510099989362,151.63522549998015,151.6683825000655,151.61839319998398,151.63522549998015,151.5852995000314,151.60200820001774,151.60200820001774,151.61839319998398,None,1,151.63522549998015,None,,1,001,2021_Dec_01_1404,Final,2021.2.3,59.95149918889401,
25,"(0.5, 0)",rightblue.png,0.15,None,None,None,None,long,48,0,32,32,24,,,,,,,153.14421420008875,153.65200669993646,154.5020437000785,154.53531860001385,154.48522270005196,154.5020437000785,154.45196940004826,154.46844390011393,154.46844390011393,154.48522270005196,right,0,154.5020437000785,153.14421420008875,0.4584931000135839,1,001,2021_Dec_01_1404,Final,2021.2.3,59.95149918889401,
32,"(0.5, 0)",leftblue.png,0.15,left,None,None,None,short,24,0,33,33,31,,,,,,,154.99628759990446,155.50199949997477,155.9520103998948,155.98532720003277,155.9353491999209,155.9520103998948,155.90203320002183,155.91849160008132,155.91849160008132,155.9353491999209,None,0,155.9520103998948,None,,1,001,2021_Dec_01_1404,Final,2021.2.3,59.95149918889401,
33,"(0.5, 0)",leftblue.png,0.15,left,None,None,None,short,24,0,34,34,32,,,,,,,157.46111600007862,157.96841580001637,158.4183843000792,158.45206300006248,158.40189109998755,158.4183843000792,158.36837520007975,158.38533660001121,158.38533660001121,158.40189109998755,None,0,158.4183843000792,157.46111600007862,,1,001,2021_Dec_01_1404,Final,2021.2.3,59.95149918889401,
21,"(0.5, 0)",rightblue.png,0.15,None,None,None,None,short,24,0,35,35,20,,,,,,,159.9329669000581,160.4350703000091,160.88534220005386,160.91837269999087,160.86838759994134,160.88534220005386,160.8353492000606,160.8520333999768,160.8520333999768,160.86838759994134,right,0,160.88534220005386,159.9329669000581,0.5869831999298185,1,001,2021_Dec_01_1404,Final,2021.2.3,59.95149918889401,
75,"(0.5, 0)",leftblue.png,0.15,left,Oppcol,leftpurple.png,0.15,long,48,0,36,36,74,,,,,,,161.5044531999156,162.001978199929,162.85197190009058,162.88522780011408,162.83533810009249,162.85197190009058,162.8020353000611,162.81838540011086,162.81838540011086,162.83533810009249,None,0,162.85197190009058,None,,1,001,2021_Dec_01_1404,Final,2021.2.3,59.95149918889401,
53,"(0.5, 0)",leftpurple.png,0.15,None,Oppcol,leftblue.png,0.15,short,24,0,37,37,52,,,,,,,164.35434289998375,164.85200869990513,165.30169490003027,165.3353210000787,165.28534699999727,165.30169490003027,165.2519036999438,165.26837690011598,165.26837690011598,165.28534699999727,None,1,165.30169490003027,164.35434289998375,,1,001,2021_Dec_01_1404,Final,2021.2.3,59.95149918889401,
41,"(0.5, 0)",rightpurple.png,0.15,right,Oppcol,rightblue.png,0.15,short,24,0,38,38,40,,,,,,,166.80505020008422,167.30203419993632,167.75202289992012,167.78533439990133,167.73523039999418,167.75202289992012,167.70186210004613,167.71840690006502,167.71840690006502,167.73523039999418,right,1,167.75202289992012,166.80505020008422,0.4244506999384612,1,001,2021_Dec_01_1404,Final,2021.2.3,59.95149918889401,
42,"(0.5, 0)",rightpurple.png,0.15,right,Oppcol,rightblue.png,0.15,short,24,0,39,39,41,,,,,,,168.20643920009024,168.70199119998142,169.15198950003833,169.1852094999049,169.13522080006078,169.15198950003833,169.10205060010776,169.11844350001775,169.11844350001775,169.13522080006078,right,1,169.15198950003833,None,0.4005702999420464,1,001,2021_Dec_01_1404,Final,2021.2.3,59.95149918889401,
5,"(0.5, 0)",rightpurple.png,0.15,right,None,None,None,long,48,0,40,40,4,,,,,,,169.5707737999037,170.06841409998015,170.91838339995593,170.95204539992847,170.9020048000384,170.91838339995593,170.86835859995335,170.8852214999497,170.8852214999497,170.9020048000384,None,0,170.91838339995593,None,,1,001,2021_Dec_01_1404,Final,2021.2.3,59.95149918889401,
30,"(-0.5, 0)",rightblue.png,0.15,right,None,None,None,long,48,0,41,41,29,,,,,,,172.41956400009803,172.91836420004256,173.76841749995947,173.80199710000306,173.7520008001011,173.76841749995947,173.71840439992957,173.73522930010222,173.73522930010222,173.7520008001011,None,0,173.76841749995947,172.41956400009803,,1,001,2021_Dec_01_1404,Final,2021.2.3,59.95149918889401,
46,"(-0.5, 0)",rightpurple.png,0.15,None,Oppcol,rightblue.png,0.15,short,24,0,42,42,45,,,,,,,175.2825750000775,175.78499719989486,176.23469620011747,176.26821079989895,176.21765849995427,176.23469620011747,176.18485460011289,176.2009841001127,176.2009841001127,176.21765849995427,None,1,176.23469620011747,175.2825750000775,,1,001,2021_Dec_01_1404,Final,2021.2.3,59.95149918889401,
54,"(0.5, 0)",leftpurple.png,0.15,None,Oppcol,leftblue.png,0.15,long,48,0,43,43,53,,,,,,,177.7362633999437,178.23532239999622,179.08528449991718,179.1184086999856,179.06839390005916,179.08528449991718,179.0353327000048,179.0519797001034,179.0519797001034,179.06839390005916,None,1,179.08528449991718,177.7362633999437,,1,001,2021_Dec_01_1404,Final,2021.2.3,59.95149918889401,
77,"(-0.5, 0)",leftblue.png,0.15,None,Oppcol,leftpurple.png,0.15,short,24,0,44,44,76,,,,,,,180.5950301999692,181.1018280000426,181.55161179997958,181.58505930006504,181.53532580006868,181.55161179997958,181.5019777000416,181.51863649999723,181.51863649999723,181.53532580006868,left,0,181.55161179997958,180.5950301999692,0.5929621998220682,1,001,2021_Dec_01_1404,Final,2021.2.3,59.95149918889401,
65,"(0.5, 0)",rightblue.png,0.15,None,Oppcol,rightpurple.png,0.15,long,48,0,45,45,64,,,,,,,182.18245480000041,182.6850668999832,183.53523400006816,183.56836979999207,183.5183790998999,183.53523400006816,183.4852297999896,183.50202160002664,183.50202160002664,183.5183790998999,right,0,183.53523400006816,None,0.4652750000823289,1,001,2021_Dec_01_1404,Final,2021.2.3,59.95149918889401,
74,"(0.5, 0)",leftblue.png,0.15,left,Oppcol,leftpurple.png,0.15,long,48,0,46,46,73,,,,,,,184.02232400001958,184.51826029992662,185.36838579992764,185.40197249990888,185.35172739997506,185.36838579992764,185.31842890009284,185.33522369991988,185.33522369991988,185.35172739997506,None,0,185.36838579992764,None,,1,001,2021_Dec_01_1404,Final,2021.2.3,59.95149918889401,
44,"(0.5, 0)",rightpurple.png,0.15,right,Oppcol,rightblue.png,0.15,long,48,0,47,47,43,,,,,,,186.8698378999252,187.36852969997562,188.21851389994845,188.2519121998921,188.20196960004978,188.21851389994845,188.16838459996507,188.18525410001166,188.18525410001166,188.20196960004978,right,1,188.21851389994845,186.8698378999252,0.5340447998605669,1,001,2021_Dec_01_1404,Final,2021.2.3,59.95149918889401,
47,"(-0.5, 0)",rightpurple.png,0.15,None,Oppcol,rightblue.png,0.15,short,24,0,48,48,46,,,,,,,188.78242089995183,189.28499910002574,189.73464579996653,189.76848919992335,189.71779559995048,189.73464579996653,189.68520619999617,189.70190580002964,189.70190580002964,189.71779559995048,None,1,189.73464579996653,None,,1,001,2021_Dec_01_1404,Final,2021.2.3,59.95149918889401,
12,"(0.5, 0)",leftpurple.png,0.15,None,None,None,None,short,24,0,49,49,11,,,,,,,191.23646049993113,191.73506670002826,192.18487689993344,192.21853410010226,192.16768610011786,192.18487689993344,192.13522049994208,192.15190330008045,192.15190330008045,192.16768610011786,None,1,192.18487689993344,191.23646049993113,,1,001,2021_Dec_01_1404,Final,2021.2.3,59.95149918889401,
58,"(-0.5, 0)",leftpurple.png,0.15,left,Oppcol,leftblue.png,0.15,short,24,0,50,50,57,,,,,,,193.6865097999107,194.18521889997646,194.63532479992136,194.66835930012167,194.61839359998703,194.63532479992136,194.5852127999533,194.6019729000982,194.6019729000982,194.61839359998703,left,1,194.63532479992136,193.6865097999107,0.4371450999751687,1,001,2021_Dec_01_1404,Final,2021.2.3,59.95149918889401,
61,"(0.5, 0)",rightblue.png,0.15,None,Oppcol,rightpurple.png,0.15,short,24,0,51,51,60,,,,,,,195.11483220010996,195.61820750008337,196.0683577999007,196.10157579998486,196.05198600003496,196.0683577999007,196.0183947000187,196.03522689989768,196.03522689989768,196.05198600003496,right,0,196.0683577999007,None,0.4275559999514371,1,001,2021_Dec_01_1404,Final,2021.2.3,59.95149918889401,
34,"(0.5, 0)",leftblue.png,0.15,left,None,None,None,long,48,0,52,52,33,,,,,,,196.52051900001243,197.0182000999339,197.86846500006504,197.90182349993847,197.85184910008684,197.86846500006504,197.81833390006796,197.83502739993855,197.83502739993855,197.85184910008684,None,0,197.86846500006504,None,,1,001,2021_Dec_01_1404,Final,2021.2.3,59.95149918889401,
67,"(-0.5, 0)",rightblue.png,0.15,right,Oppcol,rightpurple.png,0.15,short,24,0,53,53,66,,,,,,,199.377117899945,199.86824219999835,200.31837829994038,200.3519375999458,200.3017740000505,200.31837829994038,200.268401700072,200.28522949991748,200.28522949991748,200.3017740000505,None,0,200.31837829994038,199.377117899945,,1,001,2021_Dec_01_1404,Final,2021.2.3,59.95149918889401,
8,"(-0.5, 0)",rightpurple.png,0.15,None,None,None,None,short,24,0,54,54,7,,,,,,,201.81981229991652,202.3183873000089,202.76838049991056,202.80185399996117,202.75196729996242,202.76838049991056,202.71833309996873,202.73532680002972,202.73532680002972,202.75196729996242,None,1,202.76838049991056,201.81981229991652,,1,001,2021_Dec_01_1404,Final,2021.2.3,59.95149918889401,
16,"(-0.5, 0)",leftpurple.png,0.15,left,None,None,None,short,24,0,55,55,15,,,,,,,204.2695279000327,204.76837980002165,205.2183956000954,205.25188699993305,205.20188620011322,205.2183956000954,205.1683769999072,205.18530900008045,205.18530900008045,205.20188620011322,None,0,205.2183956000954,204.2695279000327,,1,001,2021_Dec_01_1404,Final,2021.2.3,59.95149918889401,
39,"(-0.5, 0)",leftblue.png,0.15,None,None,None,None,long,48,0,56,56,38,,,,,,,206.72684919997118,207.21838549990207,208.06837609992363,208.10201229993254,208.05196540011093,208.06837609992363,208.01805540011264,208.03520220005885,208.03520220005885,208.05196540011093,left,0,208.06837609992363,206.72684919997118,0.4601231999695301,1,001,2021_Dec_01_1404,Final,2021.2.3,59.95149918889401,
78,"(-0.5, 0)",leftblue.png,0.15,None,Oppcol,leftpurple.png,0.15,short,24,0,57,57,77,,,,,,,208.5613855998963,209.06838020007126,209.51836819993332,209.55187249998562,209.50187780009583,209.51836819993332,209.46842620009556,209.4852253999561,209.4852253999561,209.50187780009583,left,0,209.51836819993332,None,0.49848000006750226,1,001,2021_Dec_01_1404,Final,2021.2.3,59.95149918889401,
71,"(0.5, 0)",leftblue.png,0.15,left,Oppcol,leftpurple.png,0.15,short,24,0,58,58,70,,,,,,,210.04907750012353,210.55163359991275,211.00185850006528,211.03520420007408,210.98531159991398,211.00185850006528,210.9518601000309,210.96839000005275,210.96839000005275,210.98531159991398,None,0,211.00185850006528,None,,1,001,2021_Dec_01_1404,Final,2021.2.3,59.95149918889401,
48,"(-0.5, 0)",rightpurple.png,0.15,None,Oppcol,rightblue.png,0.15,short,24,0,59,59,47,,,,,,,212.5036536999978,213.0019050000701,213.4519505999051,213.48527810000814,213.43520690011792,213.4519505999051,213.40190619998612,213.4183595001232,213.4183595001232,213.43520690011792,None,1,213.4519505999051,212.5036536999978,,1,001,2021_Dec_01_1404,Final,2021.2.3,59.95149918889401,
28,"(-0.5, 0)",rightblue.png,0.15,right,None,None,None,short,24,0,60,60,27,,,,,,,214.9536125001032,215.45194890000857,215.9019760999363,215.93528890004382,215.885212500114,215.9019760999363,215.85191809991375,215.86844510002993,215.86844510002993,215.885212500114,None,0,215.9019760999363,214.9536125001032,,1,001,2021_Dec_01_1404,Final,2021.2.3,59.95149918889401,
43,"(0.5, 0)",rightpurple.png,0.15,right,Oppcol,rightblue.png,0.15,short,24,0,61,61,42,,,,,,,217.40117600001395,217.9018528999295,218.351693399949,218.3852007999085,218.3353109001182,218.351693399949,218.3018926999066,218.31836899998598,218.31836899998598,218.3353109001182,right,1,218.351693399949,217.40117600001395,0.40070020011626184,1,001,2021_Dec_01_1404,Final,2021.2.3,59.95149918889401,
60,"(-0.5, 0)",leftpurple.png,0.15,left,Oppcol,leftblue.png,0.15,long,48,0,62,62,59,,,,,,,218.77386280009523,219.26841960009187,220.11833279998973,220.1519788999576,220.10187779995613,220.11833279998973,220.06836119992658,220.08518550009467,220.08518550009467,220.10187779995613,left,1,220.11833279998973,None,0.5220039000269026,1,001,2021_Dec_01_1404,Final,2021.2.3,59.95149918889401,
10,"(-0.5, 0)",rightpurple.png,0.15,None,None,None,None,long,48,0,63,63,9,,,,,,,220.68145860009827,221.1850024999585,222.03529329993762,222.06848570005968,222.01834070007317,222.03529329993762,221.98527040006593,222.0018670000136,222.0018670000136,222.01834070007317,None,1,222.03529329993762,None,,1,001,2021_Dec_01_1404,Final,2021.2.3,59.95149918889401,
50,"(-0.5, 0)",rightpurple.png,0.15,None,Oppcol,rightblue.png,0.15,long,48,0,64,64,49,,,,,,,223.54394220001996,224.03533990005963,224.88530090008862,224.91834149998613,224.86832959996536,224.88530090008862,224.8352049998939,224.8518725000322,224.8518725000322,224.86832959996536,None,1,224.88530090008862,223.54394220001996,,1,001,2021_Dec_01_1404,Final,2021.2.3,59.95149918889401,
4,"(0.5, 0)",rightpurple.png,0.15,right,None,None,None,long,48,0,65,65,3,,,,,,,226.38605240010656,226.88501400011592,227.735175000038,227.76833939994685,227.71833429997787,227.735175000038,227.68521320004947,227.70187420002185,227.70187420002185,227.71833429997787,right,1,227.735175000038,226.38605240010656,0.505272600101307,1,001,2021_Dec_01_1404,Final,2021.2.3,59.95149918889401,
76,"(-0.5, 0)",leftblue.png,0.15,None,Oppcol,leftpurple.png,0.15,short,24,0,66,66,75,,,,,,,228.2804020999465,228.78523889998905,229.2351947000716,229.26835469994694,229.2183276999276,229.2351947000716,229.18519699992612,229.20185509999283,229.20185509999283,229.2183276999276,left,0,229.2351947000716,None,0.4613268000539392,1,001,2021_Dec_01_1404,Final,2021.2.3,59.95149918889401,
62,"(0.5, 0)",rightblue.png,0.15,None,Oppcol,rightpurple.png,0.15,short,24,0,67,67,61,,,,,,,229.72484649997205,230.21834199992009,230.66834370000288,230.7018778999336,230.65193930012174,230.66834370000288,230.6183464000933,230.63533689989708,230.63533689989708,230.65193930012174,right,0,230.66834370000288,None,0.42014830000698566,1,001,2021_Dec_01_1404,Final,2021.2.3,59.95149918889401,
56,"(-0.5, 0)",leftpurple.png,0.15,left,Oppcol,leftblue.png,0.15,short,24,0,68,68,55,,,,,,,231.13182589993812,231.63516220008023,232.0852067999076,232.11838100012392,232.0683587999083,232.0852067999076,232.0351970999036,232.05185199994594,232.05185199994594,232.0683587999083,left,1,232.0852067999076,None,0.3629453999456018,1,001,2021_Dec_01_1404,Final,2021.2.3,59.95149918889401,
63,"(0.5, 0)",rightblue.png,0.15,None,Oppcol,rightpurple.png,0.15,short,24,0,69,69,62,,,,,,,232.47897520009428,232.98503470001742,233.43514059996232,233.4683288000524,233.41838830010965,233.43514059996232,233.38500109990127,233.4018570999615,233.4018570999615,233.41838830010965,right,0,233.43514059996232,None,0.35718219983391464,1,001,2021_Dec_01_1404,Final,2021.2.3,59.95149918889401,
59,"(-0.5, 0)",leftpurple.png,0.15,left,Oppcol,leftblue.png,0.15,long,48,0,70,70,58,,,,,,,233.8325038999319,234.33503620000556,235.18519819993526,235.21836870000698,235.16835770010948,235.18519819993526,235.13532830006443,235.15192269999534,235.15192269999534,235.16835770010948,left,1,235.18519819993526,None,0.31912670005112886,1,001,2021_Dec_01_1404,Final,2021.2.3,59.95149918889401,
15,"(0.5, 0)",leftpurple.png,0.15,None,None,None,None,long,48,0,71,71,14,,,,,,,235.54656179994345,236.05168889998458,236.90197309991345,236.93535010004416,236.88525709998794,236.90197309991345,236.85186660010368,236.86835699994117,236.86835699994117,236.88525709998794,None,1,236.90197309991345,None,,1,001,2021_Dec_01_1404,Final,2021.2.3,59.95149918889401,
29,"(-0.5, 0)",rightblue.png,0.15,right,None,None,None,long,48,0,72,72,28,,,,,,,238.40864429995418,238.90185489994474,239.7519755999092,239.78518279991113,239.73519759997725,239.7519755999092,239.70186779997312,239.71833919989876,239.71833919989876,239.73519759997725,None,0,239.7519755999092,238.40864429995418,,1,001,2021_Dec_01_1404,Final,2021.2.3,59.95149918889401,
66,"(-0.5, 0)",rightblue.png,0.15,right,Oppcol,rightpurple.png,0.15,short,24,0,73,73,65,,,,,,,241.25318920006976,241.7516815001145,242.20181389991194,242.23529569990933,242.185319500044,242.20181389991194,242.15181479998864,242.16834329999983,242.16834329999983,242.185319500044,None,0,242.20181389991194,241.25318920006976,,1,001,2021_Dec_01_1404,Final,2021.2.3,59.95149918889401,
11,"(0.5, 0)",leftpurple.png,0.15,None,None,None,None,short,24,0,74,74,10,,,,,,,243.71190090011805,244.2184838000685,244.66833729995415,244.70182999991812,244.6519047000911,244.66833729995415,244.61830789991654,244.63521440001205,244.63521440001205,244.6519047000911,None,1,244.66833729995415,243.71190090011805,,1,001,2021_Dec_01_1404,Final,2021.2.3,59.95149918889401,
40,"(-0.5, 0)",leftblue.png,0.15,None,None,None,None,long,48,0,75,75,39,,,,,,,246.1828397999052,246.6851788999047,247.53518639993854,247.56833239994012,247.51838229992427,247.53518639993854,247.48518750001676,247.50184569996782,247.50184569996782,247.51838229992427,left,0,247.53518639993854,246.1828397999052,0.48166950000450015,1,001,2021_Dec_01_1404,Final,2021.2.3,59.95149918889401,
13,"(0.5, 0)",leftpurple.png,0.15,None,None,None,None,short,24,0,76,76,12,,,,,,,248.03699379996397,248.53524759993888,248.98529940005392,249.01832949998789,248.9684548000805,248.98529940005392,248.9351737999823,248.95185009995475,248.95185009995475,248.9684548000805,None,1,248.98529940005392,None,,1,001,2021_Dec_01_1404,Final,2021.2.3,59.95149918889401,
31,"(0.5, 0)",leftblue.png,0.15,left,None,None,None,short,24,0,77,77,30,,,,,,,250.48564939992502,250.98500670003705,251.43526650010608,251.46833689999767,251.41837349999696,251.43526650010608,251.38520430005156,251.40194389992394,251.40194389992394,251.41837349999696,None,0,251.43526650010608,250.48564939992502,,1,001,2021_Dec_01_1404,Final,2021.2.3,59.95149918889401,
51,"(0.5, 0)",leftpurple.png,0.15,None,Oppcol,leftblue.png,0.15,short,24,0,78,78,50,,,,,,,252.93680729996413,253.43534939992242,253.88532390003093,253.918336099945,253.86832939996384,253.88532390003093,253.8352498000022,253.85166139993817,253.85166139993817,253.86832939996384,None,1,253.88532390003093,252.93680729996413,,1,001,2021_Dec_01_1404,Final,2021.2.3,59.95149918889401,
64,"(0.5, 0)",rightblue.png,0.15,None,Oppcol,rightpurple.png,0.15,long,48,0,79,79,63,,,,,,,255.3876177999191,255.88528980012052,256.7352277999744,256.76832309993915,256.71832220000215,256.7352277999744,256.68530509993434,256.70197620010003,256.70197620010003,256.71832220000215,right,0,256.7352277999744,255.3876177999191,0.41717760008759797,1,001,2021_Dec_01_1404,Final,2021.2.3,59.95149918889401,
