trial,coord,imagefilestim,clrop,correc,primcond,imagefileprim,primop,onstcond,onst,Exp_loop.thisRepN,Exp_loop.thisTrialN,Exp_loop.thisN,Exp_loop.thisIndex,Instruction_text.started,Instruction_text.stopped,Instruction_resp.keys,Instruction_resp.rt,Instruction_resp.started,Instruction_resp.stopped,Fixation.started,Fixation.stopped,Stimulusarrow.started,Stimulusarrow.stopped,Backmask.started,Backmask.stopped,Frontmask.started,Frontmask.stopped,Primerarrow.started,Primerarrow.stopped,Response.keys,Response.corr,Response.rt,Response.started,Response.stopped,participant,session,date,expName,psychopyVersion,frameRate,
,,,,,,,,,,,,,,13.714480200083926,None,space,103.67381380009465,13.714480200083926,None,,,,,,,,,,,,,,,,4,001,2021_Dec_01_1420,Final,2021.2.3,59.99923203192146,
46,"(-0.5, 0)",rightpurple.png,0.15,None,Oppcol,rightblue.png,0.15,short,24,0,0,0,45,,,,,,,117.46664300002158,117.96116780000739,118.42706079990603,118.46093599987216,118.40884929988533,118.42706079990603,118.36120769986883,118.38782990002073,118.38782990002073,118.40884929988533,right,0,0.5613607000559568,118.42706079990603,None,4,001,2021_Dec_01_1420,Final,2021.2.3,59.99923203192146,
28,"(-0.5, 0)",rightblue.png,0.15,right,None,None,None,short,24,0,1,1,27,,,,,,,119.01745030004531,119.51098520006053,119.96113010006957,119.99445619992912,119.94442049995996,119.96113010006957,119.91120149986818,119.92782699991949,119.92782699991949,119.94442049995996,None,0,,119.96113010006957,None,4,001,2021_Dec_01_1420,Final,2021.2.3,59.99923203192146,
57,"(-0.5, 0)",leftpurple.png,0.15,left,Oppcol,leftblue.png,0.15,short,24,0,2,2,56,,,,,,,121.4629979999736,121.96107809990644,122.4111786999274,122.44447829993442,122.39445549994707,122.4111786999274,122.36103220004588,122.37782519985922,122.37782519985922,122.39445549994707,left,1,0.48167199990712106,122.4111786999274,121.4629979999736,4,001,2021_Dec_01_1420,Final,2021.2.3,59.99923203192146,
66,"(-0.5, 0)",rightblue.png,0.15,right,Oppcol,rightpurple.png,0.15,short,24,0,3,3,65,,,,,,,122.92589959991165,123.42763269995339,123.87776959990151,123.9110953998752,123.86115580005571,123.87776959990151,123.82771199988201,123.84451780002564,123.84451780002564,123.86115580005571,None,0,,123.87776959990151,None,4,001,2021_Dec_01_1420,Final,2021.2.3,59.99923203192146,
58,"(-0.5, 0)",leftpurple.png,0.15,left,Oppcol,leftblue.png,0.15,short,24,0,4,4,57,,,,,,,125.38742649997585,125.8944460998755,126.34432650008239,126.37775189988315,126.32782029989175,126.34432650008239,126.2944145000074,126.31107859988697,126.31107859988697,126.32782029989175,left,1,0.4678521999157965,126.34432650008239,125.38742649997585,4,001,2021_Dec_01_1420,Final,2021.2.3,59.99923203192146,
51,"(0.5, 0)",leftpurple.png,0.15,None,Oppcol,leftblue.png,0.15,short,24,0,5,5,50,,,,,,,126.83135339990258,127.327031099936,127.77782379998825,127.81109339999966,127.76116449991241,127.77782379998825,127.72783300001174,127.74450680008158,127.74450680008158,127.76116449991241,left,0,0.602358799893409,127.77782379998825,None,4,001,2021_Dec_01_1420,Final,2021.2.3,59.99923203192146,
12,"(0.5, 0)",leftpurple.png,0.15,None,None,None,None,short,24,0,6,6,11,,,,,,,128.4129291998688,128.91116630006582,129.3609456999693,129.3936534000095,129.34446609998122,129.3609456999693,129.31104449997656,129.32784159993753,129.32784159993753,129.34446609998122,None,1,,129.3609456999693,None,4,001,2021_Dec_01_1420,Final,2021.2.3,59.99923203192146,
18,"(-0.5, 0)",leftpurple.png,0.15,left,None,None,None,short,24,0,7,7,17,,,,,,,130.8755057998933,131.37782160006464,131.82774859992787,131.86117410007864,131.81107320007868,131.82774859992787,131.77769279992208,131.7945069000125,131.7945069000125,131.81107320007868,left,1,0.648637400008738,131.82774859992787,130.8755057998933,4,001,2021_Dec_01_1420,Final,2021.2.3,59.99923203192146,
43,"(0.5, 0)",rightpurple.png,0.15,right,Oppcol,rightblue.png,0.15,short,24,0,8,8,42,,,,,,,132.50478389998898,133.01087230001576,133.461139800027,133.49447220005095,133.4445344998967,133.461139800027,133.41117149987258,133.42766500008292,133.42766500008292,133.4445344998967,right,1,0.6633907000068575,133.461139800027,None,4,001,2021_Dec_01_1420,Final,2021.2.3,59.99923203192146,
42,"(0.5, 0)",rightpurple.png,0.15,right,Oppcol,rightblue.png,0.15,short,24,0,9,9,41,,,,,,,134.1453831999097,134.64445729996078,135.09438119991682,135.12787319999188,135.07772459997796,135.09438119991682,135.0444934000261,135.06117110000923,135.06117110000923,135.07772459997796,right,1,0.6139236998278648,135.09438119991682,None,4,001,2021_Dec_01_1420,Final,2021.2.3,59.99923203192146,
5,"(0.5, 0)",rightpurple.png,0.15,right,None,None,None,long,48,0,10,10,4,,,,,,,135.7305139999371,136.22770709986798,137.07774290000089,137.11113710002974,137.06113349995576,137.07774290000089,137.02764280000702,137.04453439987265,137.04453439987265,137.06113349995576,right,1,0.838790399953723,137.07774290000089,None,4,001,2021_Dec_01_1420,Final,2021.2.3,59.99923203192146,
16,"(-0.5, 0)",leftpurple.png,0.15,left,None,None,None,short,24,0,11,11,15,,,,,,,137.9556700999383,138.4611458000727,138.9110842999071,138.9443753999658,138.89443750004284,138.9110842999071,138.86113019986078,138.87780290003866,138.87780290003866,138.89443750004284,left,1,1.1170974001288414,138.9110842999071,None,4,001,2021_Dec_01_1420,Final,2021.2.3,59.99923203192146,
50,"(-0.5, 0)",rightpurple.png,0.15,None,Oppcol,rightblue.png,0.15,long,48,0,12,12,49,,,,,,,140.04708879999816,140.54447599989362,141.39437939994968,141.42774789989926,141.37780979997478,141.39437939994968,141.34448249987327,141.36117899999954,141.36117899999954,141.37780979997478,None,1,,141.39437939994968,None,4,001,2021_Dec_01_1420,Final,2021.2.3,59.99923203192146,
32,"(0.5, 0)",leftblue.png,0.15,left,None,None,None,short,24,0,13,13,31,,,,,,,142.89630859997123,143.39446590002626,143.84449420007877,143.87776280008256,143.82768270000815,143.84449420007877,143.79451779997908,143.81116020004265,143.81116020004265,143.82768270000815,None,0,,143.84449420007877,142.89630859997123,4,001,2021_Dec_01_1420,Final,2021.2.3,59.99923203192146,
69,"(-0.5, 0)",rightblue.png,0.15,right,Oppcol,rightpurple.png,0.15,long,48,0,14,14,68,,,,,,,145.3534226999618,145.86106740008108,146.71115899994038,146.74447249993682,146.69442830001935,146.71115899994038,146.6610451999586,146.6777757999953,146.6777757999953,146.69442830001935,right,1,0.885073599871248,146.71115899994038,145.3534226999618,4,001,2021_Dec_01_1420,Final,2021.2.3,59.99923203192146,
60,"(-0.5, 0)",leftpurple.png,0.15,left,Oppcol,leftblue.png,0.15,long,48,0,15,15,59,,,,,,,147.6307119000703,148.12769140000455,148.9777432999108,149.01115929987282,148.96111229993403,148.9777432999108,148.92778449994512,148.9444345999509,148.9444345999509,148.96111229993403,left,1,0.8105856999754906,148.9777432999108,None,4,001,2021_Dec_01_1420,Final,2021.2.3,59.99923203192146,
7,"(-0.5, 0)",rightpurple.png,0.15,None,None,None,None,short,24,0,16,16,6,,,,,,,149.81305349990726,150.31113739986904,150.76107569993474,150.79438249999657,150.744436299894,150.76107569993474,150.7111213998869,150.7278263999615,150.7278263999615,150.744436299894,None,1,,150.76107569993474,None,4,001,2021_Dec_01_1420,Final,2021.2.3,59.99923203192146,
24,"(0.5, 0)",rightblue.png,0.15,None,None,None,None,long,48,0,17,17,23,,,,,,,152.25996499997564,152.76116140000522,153.61107290000655,153.64444319996983,153.59440569998696,153.61107290000655,153.56111259991303,153.5778012999799,153.5778012999799,153.59440569998696,None,1,,153.61107290000655,152.25996499997564,4,001,2021_Dec_01_1420,Final,2021.2.3,59.99923203192146,
77,"(-0.5, 0)",leftblue.png,0.15,None,Oppcol,leftpurple.png,0.15,short,24,0,18,18,76,,,,,,,155.1222953000106,155.6277848999016,156.07772960001603,156.1110324000474,156.06106669991277,156.07772960001603,156.02772979997098,156.044405200053,156.044405200053,156.06106669991277,left,0,1.0224460000172257,156.07772960001603,155.1222953000106,4,001,2021_Dec_01_1420,Final,2021.2.3,59.99923203192146,
34,"(0.5, 0)",leftblue.png,0.15,left,None,None,None,long,48,0,19,19,33,,,,,,,157.13147170003504,157.6275428000372,158.47772939992137,158.51113180001266,158.46120500005782,158.47772939992137,158.4277749999892,158.4442306999117,158.4442306999117,158.46120500005782,None,0,,158.47772939992137,None,4,001,2021_Dec_01_1420,Final,2021.2.3,59.99923203192146,
64,"(0.5, 0)",rightblue.png,0.15,None,Oppcol,rightpurple.png,0.15,long,48,0,20,20,63,,,,,,,159.97891499986872,160.4779225999955,161.32773680007085,161.36110139987431,161.31115010008216,161.32773680007085,161.27780209993944,161.2944271999877,161.2944271999877,161.31115010008216,right,0,0.7006292000878602,161.32773680007085,159.97891499986872,4,001,2021_Dec_01_1420,Final,2021.2.3,59.99923203192146,
80,"(-0.5, 0)",leftblue.png,0.15,None,Oppcol,leftpurple.png,0.15,long,48,0,21,21,79,,,,,,,162.04814159986563,162.5444889999926,163.39442500006407,163.42780290008523,163.377807199955,163.39442500006407,163.34447399992496,163.36110169999301,163.36110169999301,163.377807199955,None,1,,163.39442500006407,None,4,001,2021_Dec_01_1420,Final,2021.2.3,59.99923203192146,
74,"(0.5, 0)",leftblue.png,0.15,left,Oppcol,leftpurple.png,0.15,long,48,0,22,22,73,,,,,,,164.89636159990914,165.39442329993472,166.24440279998817,166.27772699994966,166.22774320002645,166.24440279998817,166.19442109996453,166.21117749996483,166.21117749996483,166.22774320002645,None,0,,166.24440279998817,164.89636159990914,4,001,2021_Dec_01_1420,Final,2021.2.3,59.99923203192146,
39,"(-0.5, 0)",leftblue.png,0.15,None,None,None,None,long,48,0,23,23,38,,,,,,,167.7530765000265,168.24449579999782,169.09448339999653,169.1277882999275,169.07769449986517,169.09448339999653,169.0444441998843,169.0610980000347,169.0610980000347,169.07769449986517,None,1,,169.09448339999653,167.7530765000265,4,001,2021_Dec_01_1420,Final,2021.2.3,59.99923203192146,
78,"(-0.5, 0)",leftblue.png,0.15,None,Oppcol,leftpurple.png,0.15,short,24,0,24,24,77,,,,,,,170.59589080000296,171.09445099998266,171.54446740006097,171.57766099995933,171.52772290003486,171.54446740006097,171.49443800002337,171.51115299994126,171.51115299994126,171.52772290003486,None,1,,171.54446740006097,170.59589080000296,4,001,2021_Dec_01_1420,Final,2021.2.3,59.99923203192146,
22,"(0.5, 0)",rightblue.png,0.15,None,None,None,None,short,24,0,25,25,21,,,,,,,173.0579705000855,173.56037469999865,174.01115670008585,174.04439370008186,173.9943855998572,174.01115670008585,173.9610625000205,173.9778007999994,173.9778007999994,173.9943855998572,right,0,0.9289426000323147,174.01115670008585,173.0579705000855,4,001,2021_Dec_01_1420,Final,2021.2.3,59.99923203192146,
49,"(-0.5, 0)",rightpurple.png,0.15,None,Oppcol,rightblue.png,0.15,long,48,0,26,26,48,,,,,,,174.96594600006938,175.46103359991685,176.31114850006998,176.34448429988697,176.29443989996798,176.31114850006998,176.261082299985,176.27770740003325,176.27770740003325,176.29443989996798,None,1,,176.31114850006998,None,4,001,2021_Dec_01_1420,Final,2021.2.3,59.99923203192146,
19,"(-0.5, 0)",leftpurple.png,0.15,left,None,None,None,long,48,0,27,27,18,,,,,,,177.81963220005855,178.31096799997613,179.1611464000307,179.19438620004803,179.1443974999711,179.1611464000307,179.11109569994733,179.12781109986827,179.12781109986827,179.1443974999711,left,1,0.6750563001260161,179.1611464000307,177.81963220005855,4,001,2021_Dec_01_1420,Final,2021.2.3,59.99923203192146,
38,"(-0.5, 0)",leftblue.png,0.15,None,None,None,None,short,24,0,28,28,37,,,,,,,179.8697744999081,180.36033129994757,180.81119160004891,180.84438239992596,180.79443800006993,180.81119160004891,180.76109759998508,180.77758260001428,180.77758260001428,180.79443800006993,None,1,,180.81119160004891,None,4,001,2021_Dec_01_1420,Final,2021.2.3,59.99923203192146,
52,"(0.5, 0)",leftpurple.png,0.15,None,Oppcol,leftblue.png,0.15,short,24,0,29,29,51,,,,,,,182.32523730001412,182.82780950004235,183.27779640001245,183.3110634998884,183.26102450001054,183.27779640001245,183.227755199885,183.24429320008494,183.24429320008494,183.26102450001054,None,1,,183.27779640001245,182.32523730001412,4,001,2021_Dec_01_1420,Final,2021.2.3,59.99923203192146,
6,"(-0.5, 0)",rightpurple.png,0.15,None,None,None,None,short,24,0,30,30,5,,,,,,,184.78511089994572,185.2777189000044,185.72779019991867,185.76121639995836,185.71108149993233,185.72779019991867,185.67781360005029,185.69438869995065,185.69438869995065,185.71108149993233,None,1,,185.72779019991867,184.78511089994572,4,001,2021_Dec_01_1420,Final,2021.2.3,59.99923203192146,
31,"(0.5, 0)",leftblue.png,0.15,left,None,None,None,short,24,0,31,31,30,,,,,,,187.2421679000836,187.74440119997598,188.19437110004947,188.22775570000522,188.17772669997066,188.19437110004947,188.144386400003,188.1611019000411,188.1611019000411,188.17772669997066,None,0,,188.19437110004947,187.2421679000836,4,001,2021_Dec_01_1420,Final,2021.2.3,59.99923203192146,
61,"(0.5, 0)",rightblue.png,0.15,None,Oppcol,rightpurple.png,0.15,short,24,0,32,32,60,,,,,,,189.69562519993633,190.19438449991867,190.64438880002126,190.67771740001626,190.627754899906,190.64438880002126,190.59447790007107,190.61113570001908,190.61113570001908,190.627754899906,None,1,,190.64438880002126,189.69562519993633,4,001,2021_Dec_01_1420,Final,2021.2.3,59.99923203192146,
14,"(0.5, 0)",leftpurple.png,0.15,None,None,None,None,long,48,0,33,33,13,,,,,,,192.15303639997728,192.6608940998558,193.51099459989928,193.54438049998134,193.4944088999182,193.51099459989928,193.4610472000204,193.47754250001162,193.47754250001162,193.4944088999182,None,1,,193.51099459989928,192.15303639997728,4,001,2021_Dec_01_1420,Final,2021.2.3,59.99923203192146,
20,"(-0.5, 0)",leftpurple.png,0.15,left,None,None,None,long,48,0,34,34,19,,,,,,,195.0252203999553,195.527724100044,196.3777852000203,196.41113719996065,196.3610835999716,196.3777852000203,196.3275488000363,196.34445049986243,196.34445049986243,196.3610835999716,left,1,1.0104624000377953,196.3777852000203,195.0252203999553,4,001,2021_Dec_01_1420,Final,2021.2.3,59.99923203192146,
54,"(0.5, 0)",leftpurple.png,0.15,None,Oppcol,leftblue.png,0.15,long,48,0,35,35,53,,,,,,,197.41384809999727,197.9111390998587,198.76108129997738,198.7943452000618,198.74446539999917,198.76108129997738,198.7111084999051,198.72766850003973,198.72766850003973,198.74446539999917,None,1,,198.76108129997738,None,4,001,2021_Dec_01_1420,Final,2021.2.3,59.99923203192146,
65,"(0.5, 0)",rightblue.png,0.15,None,Oppcol,rightpurple.png,0.15,long,48,0,36,36,64,,,,,,,200.2622674999293,200.76106709986925,201.61109600006603,201.64438849990256,201.59445860004053,201.61109600006603,201.56087659997866,201.57770889997482,201.57770889997482,201.59445860004053,None,1,,201.61109600006603,200.2622674999293,4,001,2021_Dec_01_1420,Final,2021.2.3,59.99923203192146,
56,"(-0.5, 0)",leftpurple.png,0.15,left,Oppcol,leftblue.png,0.15,short,24,0,37,37,55,,,,,,,203.11240869993344,203.61113350000232,204.061144300038,204.09445940004662,204.044383399887,204.061144300038,204.01100980001502,204.0277678000275,204.0277678000275,204.044383399887,None,0,,204.061144300038,203.11240869993344,4,001,2021_Dec_01_1420,Final,2021.2.3,59.99923203192146,
33,"(0.5, 0)",leftblue.png,0.15,left,None,None,None,short,24,0,38,38,32,,,,,,,205.56840869993903,206.06104999990202,206.51101520005614,206.54441029997543,206.4944639999885,206.51101520005614,206.46112890006043,206.4777633000631,206.4777633000631,206.4944639999885,None,0,,206.51101520005614,205.56840869993903,4,001,2021_Dec_01_1420,Final,2021.2.3,59.99923203192146,
67,"(-0.5, 0)",rightblue.png,0.15,right,Oppcol,rightpurple.png,0.15,short,24,0,39,39,66,,,,,,,208.01984829991125,208.51109819998965,208.96107499999925,208.99441729998216,208.94443330005743,208.96107499999925,208.9110407999251,208.92779499990866,208.92779499990866,208.94443330005743,right,1,0.5713067001197487,208.96107499999925,208.01984829991125,4,001,2021_Dec_01_1420,Final,2021.2.3,59.99923203192146,
15,"(0.5, 0)",leftpurple.png,0.15,None,None,None,None,long,48,0,40,40,14,,,,,,,209.5638657999225,210.06113300006837,210.9110552999191,210.94445279985666,210.89440139988437,210.9110552999191,210.86111019994132,210.87768499995582,210.87768499995582,210.89440139988437,None,1,,210.9110552999191,None,4,001,2021_Dec_01_1420,Final,2021.2.3,59.99923203192146,
1,"(0.5, 0)",rightpurple.png,0.15,right,None,None,None,short,24,0,41,41,0,,,,,,,212.42545720003545,212.9277216999326,213.37772720004432,213.41112109995447,213.36115509993397,213.37772720004432,213.32775799999945,213.3443843999412,213.3443843999412,213.36115509993397,right,1,0.6184013998135924,213.37772720004432,212.42545720003545,4,001,2021_Dec_01_1420,Final,2021.2.3,59.99923203192146,
13,"(0.5, 0)",leftpurple.png,0.15,None,None,None,None,short,24,0,42,42,12,,,,,,,214.02984940004535,214.52762759989128,214.9777476999443,215.01099539990537,214.96112499991432,214.9777476999443,214.92777359997854,214.94437110004947,214.94437110004947,214.96112499991432,None,1,,214.9777476999443,None,4,001,2021_Dec_01_1420,Final,2021.2.3,59.99923203192146,
2,"(0.5, 0)",rightpurple.png,0.15,right,None,None,None,short,24,0,43,43,1,,,,,,,216.48593399999663,216.9776991000399,217.42765359999612,217.461029099999,217.41112020006403,217.42765359999612,217.37777010002173,217.39444659999572,217.39444659999572,217.41112020006403,right,1,0.6167018001433462,217.42765359999612,216.48593399999663,4,001,2021_Dec_01_1420,Final,2021.2.3,59.99923203192146,
68,"(-0.5, 0)",rightblue.png,0.15,right,Oppcol,rightpurple.png,0.15,short,24,0,44,44,67,,,,,,,218.0635468000546,218.5610980000347,219.01100170006976,219.04432399990037,218.99438709998503,219.01100170006976,218.96098709991202,218.97776639997028,218.97776639997028,218.99438709998503,None,0,,219.01100170006976,None,4,001,2021_Dec_01_1420,Final,2021.2.3,59.99923203192146,
23,"(0.5, 0)",rightblue.png,0.15,None,None,None,None,short,24,0,45,45,22,,,,,,,220.51228050002828,221.01117120007984,221.4610784999095,221.49446469987743,221.44446299993433,221.4610784999095,221.41111180000007,221.42774429987185,221.42774429987185,221.44446299993433,None,1,,221.4610784999095,220.51228050002828,4,001,2021_Dec_01_1420,Final,2021.2.3,59.99923203192146,
76,"(-0.5, 0)",leftblue.png,0.15,None,Oppcol,leftpurple.png,0.15,short,24,0,46,46,75,,,,,,,222.96302959998138,223.4610550000798,223.9111103999894,223.9444249998778,223.89427699986845,223.9111103999894,223.86113239987753,223.87775469990447,223.87775469990447,223.89427699986845,None,1,,223.9111103999894,222.96302959998138,4,001,2021_Dec_01_1420,Final,2021.2.3,59.99923203192146,
35,"(0.5, 0)",leftblue.png,0.15,left,None,None,None,long,48,0,47,47,34,,,,,,,225.42120680003427,225.9277172998991,226.77769550005905,226.81103129987605,226.76108040008694,226.77769550005905,226.72769710002467,226.7444893999491,226.7444893999491,226.76108040008694,left,1,0.690312699880451,226.77769550005905,225.42120680003427,4,001,2021_Dec_01_1420,Final,2021.2.3,59.99923203192146,
17,"(-0.5, 0)",leftpurple.png,0.15,left,None,None,None,short,24,0,48,48,16,,,,,,,227.50456120003946,228.01111319987103,228.46101780002937,228.49436299991794,228.4443626999855,228.46101780002937,228.4110844999086,228.4277784000151,228.4277784000151,228.4443626999855,left,1,1.3109307999256998,228.46101780002937,None,4,001,2021_Dec_01_1420,Final,2021.2.3,59.99923203192146,
70,"(-0.5, 0)",rightblue.png,0.15,right,Oppcol,rightpurple.png,0.15,long,48,0,49,49,69,,,,,,,229.7970322999172,230.29439569986425,231.14440559991635,231.17772879987024,231.12786479992792,231.14440559991635,231.09436200000346,231.111069599865,231.111069599865,231.12786479992792,right,1,0.9482397998217493,231.14440559991635,None,4,001,2021_Dec_01_1420,Final,2021.2.3,59.99923203192146,
40,"(-0.5, 0)",leftblue.png,0.15,None,None,None,None,long,48,0,50,50,39,,,,,,,232.11391469999216,232.61107619991526,233.46102540008724,233.4943681000732,233.4444357000757,233.46102540008724,233.411108299857,233.4277965000365,233.4277965000365,233.4444357000757,None,1,,233.46102540008724,None,4,001,2021_Dec_01_1420,Final,2021.2.3,59.99923203192146,
73,"(0.5, 0)",leftblue.png,0.15,left,Oppcol,leftpurple.png,0.15,short,24,0,51,51,72,,,,,,,234.9753425999079,235.4776224999223,235.92772600008175,235.96105659985915,235.91099880007096,235.92772600008175,235.87777170003392,235.89444769988768,235.89444769988768,235.91099880007096,None,0,,235.92772600008175,234.9753425999079,4,001,2021_Dec_01_1420,Final,2021.2.3,59.99923203192146,
41,"(0.5, 0)",rightpurple.png,0.15,right,Oppcol,rightblue.png,0.15,short,24,0,52,52,40,,,,,,,237.42882729996927,237.92777660000138,238.37771290005185,238.41110139992088,238.3610250998754,238.37771290005185,238.32772119995207,238.34436069987714,238.34436069987714,238.3610250998754,right,1,0.5623959000222385,238.37771290005185,237.42882729996927,4,001,2021_Dec_01_1420,Final,2021.2.3,59.99923203192146,
25,"(0.5, 0)",rightblue.png,0.15,None,None,None,None,long,48,0,53,53,24,,,,,,,238.96687430003658,239.46111000003293,240.311006099917,240.34441090002656,240.29442139994353,240.311006099917,240.2610466000624,240.27754689985886,240.27754689985886,240.29442139994353,None,1,,240.311006099917,None,4,001,2021_Dec_01_1420,Final,2021.2.3,59.99923203192146,
21,"(0.5, 0)",rightblue.png,0.15,None,None,None,None,short,24,0,54,54,20,,,,,,,241.81181189999916,242.31112189986743,242.76112150005065,242.79445749986917,242.7443846000824,242.76112150005065,242.7110788000282,242.72778509999625,242.72778509999625,242.7443846000824,None,1,,242.76112150005065,241.81181189999916,4,001,2021_Dec_01_1420,Final,2021.2.3,59.99923203192146,
27,"(-0.5, 0)",rightblue.png,0.15,right,None,None,None,short,24,0,55,55,26,,,,,,,244.27544740005396,244.77768719987944,245.22766149998643,245.26107949996367,245.21102140005678,245.22766149998643,245.1775392999407,245.1943383999169,245.1943383999169,245.21102140005678,right,1,0.9922976000234485,245.22766149998643,244.27544740005396,4,001,2021_Dec_01_1420,Final,2021.2.3,59.99923203192146,
36,"(-0.5, 0)",leftblue.png,0.15,None,None,None,None,short,24,0,56,56,35,,,,,,,246.2451766000595,246.7441948999185,247.1943512998987,247.22777120000683,247.17768560000695,247.1943512998987,247.14445380005054,247.16109619988129,247.16109619988129,247.17768560000695,None,1,,247.1943512998987,None,4,001,2021_Dec_01_1420,Final,2021.2.3,59.99923203192146,
53,"(0.5, 0)",leftpurple.png,0.15,None,Oppcol,leftblue.png,0.15,short,24,0,57,57,52,,,,,,,248.70885069994256,249.21111329994164,249.66109509998932,249.6943216000218,249.64435949991457,249.66109509998932,249.6111021998804,249.6276976999361,249.6276976999361,249.64435949991457,left,0,0.783128899987787,249.66109509998932,248.70885069994256,4,001,2021_Dec_01_1420,Final,2021.2.3,59.99923203192146,
3,"(0.5, 0)",rightpurple.png,0.15,right,None,None,None,short,24,0,58,58,2,,,,,,,250.4653642999474,250.961023400072,251.41098799998872,251.44435400003567,251.3943499000743,251.41098799998872,251.36101810005493,251.37770819989964,251.37770819989964,251.3943499000743,None,0,,251.41098799998872,None,4,001,2021_Dec_01_1420,Final,2021.2.3,59.99923203192146,
62,"(0.5, 0)",rightblue.png,0.15,None,Oppcol,rightpurple.png,0.15,short,24,0,59,59,61,,,,,,,252.92024999996647,253.42759609990753,253.87778989993967,253.91101869987324,253.86101730004884,253.87778989993967,253.82770320004784,253.84439800004475,253.84439800004475,253.86101730004884,None,1,,253.87778989993967,252.92024999996647,4,001,2021_Dec_01_1420,Final,2021.2.3,59.99923203192146,
45,"(0.5, 0)",rightpurple.png,0.15,right,Oppcol,rightblue.png,0.15,long,48,0,60,60,44,,,,,,,255.3774749999866,255.8777022000868,256.72764820000157,256.7609248999506,256.71111839986406,256.72764820000157,256.67768689990044,256.69435380003415,256.69435380003415,256.71111839986406,right,1,0.5323683999013156,256.72764820000157,255.3774749999866,4,001,2021_Dec_01_1420,Final,2021.2.3,59.99923203192146,
30,"(-0.5, 0)",rightblue.png,0.15,right,None,None,None,long,48,0,61,61,29,,,,,,,257.2877849000506,257.79419389995746,258.6443761999253,258.6777317998931,258.62776669999585,258.6443761999253,258.5943767998833,258.6110568998847,258.6110568998847,258.62776669999585,right,1,1.3196777999401093,258.6443761999253,None,4,001,2021_Dec_01_1420,Final,2021.2.3,59.99923203192146,
48,"(-0.5, 0)",rightpurple.png,0.15,None,Oppcol,rightblue.png,0.15,short,24,0,62,62,47,,,,,,,260.0061011998914,260.51110589993186,260.9610188999213,260.9944209000096,260.9443649998866,260.9610188999213,260.9111051999498,260.92775420006365,260.92775420006365,260.9443649998866,None,1,,260.9610188999213,None,4,001,2021_Dec_01_1420,Final,2021.2.3,59.99923203192146,
79,"(-0.5, 0)",leftblue.png,0.15,None,Oppcol,leftpurple.png,0.15,long,48,0,63,63,78,,,,,,,262.471203800058,262.9777347999625,263.827678399859,263.8609742000699,263.8110217000358,263.827678399859,263.7777678000275,263.7943303999491,263.7943303999491,263.8110217000358,None,1,,263.827678399859,262.471203800058,4,001,2021_Dec_01_1420,Final,2021.2.3,59.99923203192146,
4,"(0.5, 0)",rightpurple.png,0.15,right,None,None,None,long,48,0,64,64,3,,,,,,,265.3269948998932,265.82768170000054,266.6774897000287,266.7110724998638,266.6610985000152,266.6774897000287,266.6277419999242,266.6444262000732,266.6444262000732,266.6610985000152,right,1,0.7904229001142085,266.6774897000287,265.3269948998932,4,001,2021_Dec_01_1420,Final,2021.2.3,59.99923203192146,
75,"(0.5, 0)",leftblue.png,0.15,left,Oppcol,leftpurple.png,0.15,long,48,0,65,65,74,,,,,,,267.4971239999868,267.994440499926,268.84438430005684,268.8776898998767,268.82771089999005,268.84438430005684,268.7943724999204,268.81097680004314,268.81097680004314,268.82771089999005,left,1,0.9916213001124561,268.84438430005684,None,4,001,2021_Dec_01_1420,Final,2021.2.3,59.99923203192146,
29,"(-0.5, 0)",rightblue.png,0.15,right,None,None,None,long,48,0,66,66,28,,,,,,,269.87414059997536,270.3770381999202,271.22767669986933,271.2610957999714,271.211014600005,271.22767669986933,271.1776727999095,271.1943373000249,271.1943373000249,271.211014600005,right,1,0.9923571001272649,271.22767669986933,None,4,001,2021_Dec_01_1420,Final,2021.2.3,59.99923203192146,
26,"(-0.5, 0)",rightblue.png,0.15,right,None,None,None,short,24,0,67,67,25,,,,,,,272.2572258000728,272.76110229990445,273.21104109985754,273.24441939988174,273.1943069999106,273.21104109985754,273.1603361000307,273.1772753999103,273.1772753999103,273.1943069999106,right,1,0.6889901000540704,273.21104109985754,None,4,001,2021_Dec_01_1420,Final,2021.2.3,59.99923203192146,
63,"(0.5, 0)",rightblue.png,0.15,None,Oppcol,rightpurple.png,0.15,short,24,0,68,68,62,,,,,,,273.93062760005705,274.42767599993385,274.87767579988576,274.9109900998883,274.8608522999566,274.87767579988576,274.82743770000525,274.8443650000263,274.8443650000263,274.8608522999566,None,1,,274.87767579988576,None,4,001,2021_Dec_01_1420,Final,2021.2.3,59.99923203192146,
55,"(0.5, 0)",leftpurple.png,0.15,None,Oppcol,leftblue.png,0.15,long,48,0,69,69,54,,,,,,,276.37933170003816,276.87781109986827,277.72770980000496,277.7609778000042,277.71091559994966,277.72770980000496,277.6776858998928,277.69433799991384,277.69433799991384,277.71091559994966,left,0,0.8284220001660287,277.72770980000496,276.37933170003816,4,001,2021_Dec_01_1420,Final,2021.2.3,59.99923203192146,
8,"(-0.5, 0)",rightpurple.png,0.15,None,None,None,None,short,24,0,70,70,7,,,,,,,278.5802780999802,279.0776704000309,279.52768100006506,279.5610122999642,279.51112969988026,279.52768100006506,279.4777210999746,279.4942342999857,279.4942342999857,279.51112969988026,None,1,,279.52768100006506,None,4,001,2021_Dec_01_1420,Final,2021.2.3,59.99923203192146,
9,"(-0.5, 0)",rightpurple.png,0.15,None,None,None,None,long,48,0,71,71,8,,,,,,,281.04212030000053,281.54434629995376,282.39433420007117,282.4276680999901,282.37767069996335,282.39433420007117,282.34413379989564,282.36089330003597,282.36089330003597,282.37767069996335,None,1,,282.39433420007117,281.04212030000053,4,001,2021_Dec_01_1420,Final,2021.2.3,59.99923203192146,
37,"(-0.5, 0)",leftblue.png,0.15,None,None,None,None,short,24,0,72,72,36,,,,,,,283.89566039992496,284.3943334000651,284.84429370006546,284.8776759998873,284.8276954998728,284.84429370006546,284.7943029999733,284.81106059998274,284.81106059998274,284.8276954998728,None,1,,284.84429370006546,283.89566039992496,4,001,2021_Dec_01_1420,Final,2021.2.3,59.99923203192146,
59,"(-0.5, 0)",leftpurple.png,0.15,left,Oppcol,leftblue.png,0.15,long,48,0,73,73,58,,,,,,,286.3456031999085,286.8443440999836,287.694329299964,287.72766430000775,287.6777007000055,287.694329299964,287.64443830004893,287.6610324999783,287.6610324999783,287.6777007000055,None,0,,287.694329299964,286.3456031999085,4,001,2021_Dec_01_1420,Final,2021.2.3,59.99923203192146,
71,"(0.5, 0)",leftblue.png,0.15,left,Oppcol,leftpurple.png,0.15,short,24,0,74,74,70,,,,,,,289.1965964999981,289.69433410000056,290.144306599861,290.1777248000726,290.1277331998572,290.144306599861,290.09431719989516,290.1110131999012,290.1110131999012,290.1277331998572,left,1,1.0036308001726866,290.144306599861,289.1965964999981,4,001,2021_Dec_01_1420,Final,2021.2.3,59.99923203192146,
11,"(0.5, 0)",leftpurple.png,0.15,None,None,None,None,short,24,0,75,75,10,,,,,,,291.1801618000027,291.67767790006474,292.12769740005024,292.1609648000449,292.1109974998981,292.12769740005024,292.07769869989716,292.0943940000143,292.0943940000143,292.1109974998981,None,1,,292.12769740005024,None,4,001,2021_Dec_01_1420,Final,2021.2.3,59.99923203192146,
10,"(-0.5, 0)",rightpurple.png,0.15,None,None,None,None,long,48,0,76,76,9,,,,,,,293.62862249999307,294.1269352999516,294.97765940008685,295.0110778999515,294.9610945000313,294.97765940008685,294.9277228000574,294.94437419995666,294.94437419995666,294.9610945000313,None,1,,294.97765940008685,293.62862249999307,4,001,2021_Dec_01_1420,Final,2021.2.3,59.99923203192146,
47,"(-0.5, 0)",rightpurple.png,0.15,None,Oppcol,rightblue.png,0.15,short,24,0,77,77,46,,,,,,,296.4864072999917,296.9777647999581,297.427633699961,297.46099380007945,297.41099700005725,297.427633699961,297.3776692999527,297.39442609995604,297.39442609995604,297.41099700005725,None,1,,297.427633699961,296.4864072999917,4,001,2021_Dec_01_1420,Final,2021.2.3,59.99923203192146,
72,"(0.5, 0)",leftblue.png,0.15,left,Oppcol,leftpurple.png,0.15,short,24,0,78,78,71,,,,,,,298.9294722999912,299.42768660001457,299.87774550006725,299.91109690000303,299.8610320999287,299.87774550006725,299.82770929997787,299.8443517999258,299.8443517999258,299.8610320999287,left,1,0.9022685999516398,299.87774550006725,298.9294722999912,4,001,2021_Dec_01_1420,Final,2021.2.3,59.99923203192146,
44,"(0.5, 0)",rightpurple.png,0.15,right,Oppcol,rightblue.png,0.15,long,48,0,79,79,43,,,,,,,300.8143758000806,301.31090689986013,302.16108760004863,302.1943328999914,302.1443709998857,302.16108760004863,302.1110559999943,302.12770319986157,302.12770319986157,302.1443709998857,right,1,0.9068066000472754,302.16108760004863,None,4,001,2021_Dec_01_1420,Final,2021.2.3,59.99923203192146,
